Folder: Recycling/Battery Recycling/6.27.2024

Note: README.md
# Battery Recycling
DES measurements for recycling project

File: Air_Background_FTIR.tsv
X	Y
400.163	2.21539
412.217	4.07727
424.27	5.30514
436.323	7.09433
448.376	8.74143
460.429	9.66348
472.482	10.4371
484.535	12.5407
496.588	14.8229
508.641	16.4704
520.695	18.3207
532.748	20.5749
544.801	21.5087
556.854	22.8136
568.907	23.6886
580.96	24.8103
593.013	25.8162
605.066	27.5119
617.12	28.1299
629.173	30.034
641.226	30.0208
653.279	29.4071
665.332	28.9545
677.385	30.737
689.438	32.7266
701.491	36.1668
713.544	37.6378
725.598	38.292
737.651	38.7697
749.704	39.5571
761.757	40.3866
773.81	41.0169
785.863	41.2994
797.916	41.0928
809.969	41.6665
822.022	42.3386
834.076	42.8593
846.129	43.2747
858.182	43.9708
870.235	44.877
882.288	45.992
894.341	47.0325
906.394	48.1599
918.447	49.4729
930.501	51.089
942.554	52.711
954.607	54.0647
966.66	55.0389
978.713	55.7601
990.766	56.3082
1002.82	56.5818
1014.87	55.8763
1026.93	55.0619
1038.98	54.258
1051.03	53.3859
1063.08	52.8973
1075.14	52.491
1087.19	53.3813
1099.24	54.6669
1111.3	56.6481
1123.35	58.8873
1135.4	60.9508
1147.46	62.7876
1159.51	64.4744
1171.56	65.8704
1183.62	67.146
1195.67	68.6453
1207.72	69.9185
1219.78	71.0118
1231.83	72.1654
1243.88	73.1127
1255.93	73.2764
1267.99	73.6869
1280.04	75.3924
1292.09	75.9725
1304.15	76.2304
1316.2	74.8851
1328.25	76.6512
1340.31	70.8657
1352.36	75.6705
1364.41	70.4414
1376.47	71.598
1388.52	69.6123
1400.57	71.0996
1412.63	75.6362
1424.68	71.8296
1436.73	59.6603
1448.78	71.29
1460.84	72.3361
1472.89	55.2699
1484.94	75.0494
1497	60.8577
1509.05	54.1319
1521.1	48.2366
1533.16	58.4635
1545.21	58.7112
1557.26	40.5076
1569.32	59.7695
1581.37	75.5466
1593.42	75.2082
1605.48	76.2723
1617.53	61.7316
1629.58	74.3875
1641.63	76.4085
1653.69	40.1076
1665.74	75.0876
1677.79	71.9273
1689.85	72.1088
1701.9	56.0201
1713.95	64.0159
1726.01	77.8688
1738.06	68.6137
1750.11	61.0896
1762.17	69.7627
1774.22	67.5994
1786.27	76.848
1798.32	73.4226
1810.38	74.53
1822.43	76.8942
1834.48	78.3456
1846.54	72.6041
1858.59	78.2789
1870.64	72.5683
1882.7	77.9374
1894.75	75.852
1906.8	76.3497
1918.86	72.3907
1930.91	76.8928
1942.96	72.1412
1955.02	75.6212
1967.07	73.7555
1979.12	75.7209
1991.17	72.7105
2003.23	75.0296
2015.28	73.6852
2027.33	73.6997
2039.39	73.5115
2051.44	73.4297
2063.49	72.507
2075.55	72.5561
2087.6	72.094
2099.65	71.8479
2111.71	71.4497
2123.76	71.0521
2135.81	70.5856
2147.87	70.2916
2159.92	69.8945
2171.97	69.5109
2184.02	69.0987
2196.08	68.6831
2208.13	68.2746
2220.18	67.9128
2232.24	67.4168
2244.29	66.7695
2256.34	65.7123
2268.4	64.5438
2280.45	64.7057
2292.5	61.0906
2304.56	53.4996
2316.61	40.5724
2328.66	28.4185
2340.72	25.0574
2352.77	25.6063
2364.82	19.8372
2376.87	42.0175
2388.93	61.7685
2400.98	61.6658
2413.03	61.2278
2425.09	60.7598
2437.14	60.3345
2449.19	59.8946
2461.25	59.475
2473.3	59.0474
2485.35	58.5995
2497.41	58.1473
2509.46	57.7123
2521.51	57.2809
2533.56	56.8445
2545.62	56.3916
2557.67	55.9393
2569.72	55.4942
2581.78	55.0606
2593.83	54.6189
2605.88	54.1607
2617.94	53.7011
2629.99	53.2509
2642.04	52.81
2654.1	52.3714
2666.15	51.9159
2678.2	51.4439
2690.26	50.9832
2702.31	50.5284
2714.36	50.0888
2726.41	49.63
2738.47	49.1742
2750.52	48.7165
2762.57	48.2672
2774.63	47.8103
2786.68	47.3283
2798.73	46.824
2810.79	46.3332
2822.84	45.8622
2834.89	45.3442
2846.95	44.5137
2859	43.8789
2871.05	43.5747
2883.11	43.2534
2895.16	42.6898
2907.21	42.0056
2919.26	41.023
2931.32	40.5314
2943.37	40.6132
2955.42	40.0688
2967.48	39.8324
2979.53	39.9061
2991.58	39.6616
3003.64	39.2721
3015.69	38.7843
3027.74	38.4649
3039.8	38.112
3051.85	37.6699
3063.9	37.0153
3075.96	36.7681
3088.01	36.3887
3100.06	35.7248
3112.11	35.4503
3124.17	34.9755
3136.22	34.7291
3148.27	34.3245
3160.33	33.9109
3172.38	33.4858
3184.43	32.9722
3196.49	32.4757
3208.54	32.1134
3220.59	31.6969
3232.65	31.3541
3244.7	30.8324
3256.75	30.5684
3268.8	30.2647
3280.86	29.8372
3292.91	29.388
3304.96	29.1129
3317.02	28.7573
3329.07	28.3734
3341.12	28.0023
3353.18	27.6017
3365.23	27.0648
3377.28	26.9156
3389.34	26.5252
3401.39	26.1396
3413.44	25.8381
3425.5	25.4662
3437.55	25.0968
3449.6	24.6557
3461.65	24.1946
3473.71	24.0071
3485.76	23.6066
3497.81	23.3632
3509.87	22.5994
3521.92	22.0984
3533.97	22.4939
3546.03	20.5497
3558.08	21.6705
3570.13	20.6628
3582.19	20.7934
3594.24	18.6867
3606.29	18.0693
3618.35	16.0147
3630.4	15.7062
3642.45	19.2406
3654.5	17.3552
3666.56	17.7174
3678.61	16.591
3690.66	14.3633
3702.72	16.3758
3714.77	16.8611
3726.82	15.0678
3738.88	14.6892
3750.93	10.814
3762.98	16.2788
3775.04	16.9068
3787.09	16.4464
3799.14	13.218
3811.2	16.0185
3823.25	13.6991
3835.3	12.0592
3847.35	14.8489
3859.41	14.0366
3871.46	12.1486
3883.51	12.4623
3895.57	13.8554
3907.62	13.8437
3919.67	12.9674
3931.73	12.5563
3943.78	12.8648
3955.83	13.1451
3967.89	12.9697
3979.94	12.7918
3991.99	12.5449
4000.19	12.4724

File: ChClUrea_Absorbance_FTIR.tsv
X	Y
400.163	0.655599
412.217	0.686153
424.27	0.727577
436.323	0.763106
448.376	0.818097
460.429	0.860747
472.482	0.89069
484.535	0.923451
496.588	0.982241
508.641	1.06567
520.695	1.19481
532.748	1.27598
544.801	1.21987
556.854	1.17446
568.907	1.251
580.96	1.42835
593.013	1.34996
605.066	1.21827
617.12	1.17243
629.173	1.10418
641.226	1.03252
653.279	0.967419
665.332	0.900611
677.385	0.831998
689.438	0.76986
701.491	0.714342
713.544	0.670451
725.598	0.611913
737.651	0.560811
749.704	0.504549
761.757	0.449317
773.81	0.467469
785.863	0.666122
797.916	0.530661
809.969	0.425004
822.022	0.366984
834.076	0.334101
846.129	0.323345
858.182	0.398681
870.235	0.426807
882.288	0.385992
894.341	0.355524
906.394	0.350646
918.447	0.419844
930.501	0.410562
942.554	0.573752
954.607	1.04967
966.66	0.583339
978.713	0.468732
990.766	0.452317
1002.82	0.558877
1014.87	0.488519
1026.93	0.476851
1038.98	0.557279
1051.03	0.73131
1063.08	0.722271
1075.14	0.819748
1087.19	0.943364
1099.24	0.591263
1111.3	0.507781
1123.35	0.546977
1135.4	0.644715
1147.46	0.638391
1159.51	0.729789
1171.56	0.76273
1183.62	0.69939
1195.67	0.625957
1207.72	0.578492
1219.78	0.526605
1231.83	0.516616
1243.88	0.488149
1255.93	0.471769
1267.99	0.487385
1280.04	0.485646
1292.09	0.444602
1304.15	0.443062
1316.2	0.45475
1328.25	0.480569
1340.31	0.517475
1352.36	0.534405
1364.41	0.542676
1376.47	0.599864
1388.52	0.677046
1400.57	0.871715
1412.63	1.32081
1424.68	1.77812
1436.73	1.8902
1448.78	1.62854
1460.84	1.34522
1472.89	1.42941
1484.94	1.3245
1497	0.812525
1509.05	0.537158
1521.1	0.486403
1533.16	0.497076
1545.21	0.558115
1557.26	0.676747
1569.32	0.955984
1581.37	1.4502
1593.42	2.31316
1605.48	3.3304
1617.53	3.42952
1629.58	3.13847
1641.63	2.51517
1653.69	2.76388
1665.74	3.24385
1677.79	3.30307
1689.85	3.03862
1701.9	1.39987
1713.95	0.664012
1726.01	0.456465
1738.06	0.350809
1750.11	0.278743
1762.17	0.242427
1774.22	0.216601
1786.27	0.199204
1798.32	0.181079
1810.38	0.168069
1822.43	0.158245
1834.48	0.150144
1846.54	0.1429
1858.59	0.138867
1870.64	0.134341
1882.7	0.133026
1894.75	0.132149
1906.8	0.132357
1918.86	0.133261
1930.91	0.136862
1942.96	0.139469
1955.02	0.143752
1967.07	0.145203
1979.12	0.143659
1991.17	0.140711
2003.23	0.139967
2015.28	0.140558
2027.33	0.142595
2039.39	0.143808
2051.44	0.142529
2063.49	0.140823
2075.55	0.140233
2087.6	0.140772
2099.65	0.141844
2111.71	0.144054
2123.76	0.149945
2135.81	0.16022
2147.87	0.186235
2159.92	0.186927
2171.97	0.165835
2184.02	0.162638
2196.08	0.163062
2208.13	0.160662
2220.18	0.156177
2232.24	0.152559
2244.29	0.150852
2256.34	0.150066
2268.4	0.149702
2280.45	0.150307
2292.5	0.149656
2304.56	0.150292
2316.61	0.150661
2328.66	0.149562
2340.72	0.148634
2352.77	0.148528
2364.82	0.150105
2376.87	0.15509
2388.93	0.154694
2400.98	0.155605
2413.03	0.156467
2425.09	0.156932
2437.14	0.157225
2449.19	0.156836
2461.25	0.157834
2473.3	0.161442
2485.35	0.165809
2497.41	0.166184
2509.46	0.165849
2521.51	0.167017
2533.56	0.169486
2545.62	0.176331
2557.67	0.183072
2569.72	0.189304
2581.78	0.198996
2593.83	0.207855
2605.88	0.213841
2617.94	0.216841
2629.99	0.219816
2642.04	0.228078
2654.1	0.237235
2666.15	0.242241
2678.2	0.245518
2690.26	0.247298
2702.31	0.247965
2714.36	0.248588
2726.41	0.252144
2738.47	0.260505
2750.52	0.271901
2762.57	0.282342
2774.63	0.293636
2786.68	0.309643
2798.73	0.328793
2810.79	0.350219
2822.84	0.370915
2834.89	0.383233
2846.95	0.393394
2859	0.401389
2871.05	0.407373
2883.11	0.410397
2895.16	0.408015
2907.21	0.413918
2919.26	0.427776
2931.32	0.435969
2943.37	0.447301
2955.42	0.479419
2967.48	0.496163
2979.53	0.467976
2991.58	0.461198
3003.64	0.485544
3015.69	0.57715
3027.74	0.63769
3039.8	0.631972
3051.85	0.637262
3063.9	0.659662
3075.96	0.711323
3088.01	0.787305
3100.06	0.880817
3112.11	0.988375
3124.17	1.11573
3136.22	1.2785
3148.27	1.49224
3160.33	1.76477
3172.38	2.07636
3184.43	2.34311
3196.49	2.44789
3208.54	2.38234
3220.59	2.28278
3232.65	2.26526
3244.7	2.34452
3256.75	2.46158
3268.8	2.53864
3280.86	2.60473
3292.91	2.69473
3304.96	2.83017
3317.02	2.95877
3329.07	2.9814
3341.12	2.98295
3353.18	2.91609
3365.23	2.84937
3377.28	2.77003
3389.34	2.68477
3401.39	2.62303
3413.44	2.54656
3425.5	2.4317
3437.55	2.3191
3449.6	2.15628
3461.65	1.95308
3473.71	1.68977
3485.76	1.37438
3497.81	1.02831
3509.87	0.729825
3521.92	0.541891
3533.97	0.439054
3546.03	0.377523
3558.08	0.33446
3570.13	0.302288
3582.19	0.274456
3594.24	0.25112
3606.29	0.231345
3618.35	0.214479
3630.4	0.204764
3642.45	0.19401
3654.5	0.183309
3666.56	0.176334
3678.61	0.173282
3690.66	0.169251
3702.72	0.170579
3714.77	0.170441
3726.82	0.169883
3738.88	0.167735
3750.93	0.163882
3762.98	0.169637
3775.04	0.171767
3787.09	0.17324
3799.14	0.167686
3811.2	0.175019
3823.25	0.17598
3835.3	0.172388
3847.35	0.178881
3859.41	0.17991
3871.46	0.180969
3883.51	0.180991
3895.57	0.184147
3907.62	0.186964
3919.67	0.186878
3931.73	0.186836
3943.78	0.187903
3955.83	0.188583
3967.89	0.189853
3979.94	0.190758
3991.99	0.190765
4000.19	0.190381